Folder: pyIsoFit/pyIsofit (new Package)

Note: README.md
|                            |                                                                                                                                                                                                                                                                                                                                                                                                                                                                                                                                                                                                                                                                                                                                         |
| -------------------------- | --------------------------------------------------------------------------------------------------------------------------------------------------------------------------------------------------------------------------------------------------------------------------------------------------------------------------------------------------------------------------------------------------------------------------------------------------------------------------------------------------------------------------------------------------------------------------------------------------------------------------------------------------------------------------------------------------------------------------------------- |
| Continuous integration     | ![Python package](https://github.com/dominikpantak/pyIsofit/workflows/Python%20package/badge.svg) ![pre-commit](https://github.com/dominikpantak/pyIsofit/workflows/pre-commit/badge.svg)                                                                                                                                                                                                                                                                                                                                                                                                                                                                                                                                                       |
| Code health                | [![Maintenance](https://img.shields.io/badge/Maintained%3F-yes-green.svg)](https://GitHub.com/Naereen/StrapDown.js/graphs/commit-activity) [![Maintainability](https://api.codeclimate.com/v1/badges/db9b3f21528574dfb141/maintainability)](https://codeclimate.com/github/dominikpantak/pyIsofit/maintainability) [![Language grade: Python](https://img.shields.io/lgtm/grade/python/g/dominikpantak/pyIsofit.svg?logo=lgtm&logoWidth=18)](https://lgtm.com/projects/g/dominikpantak/pyIsofit/context:python) ![GitHub last commit](https://img.shields.io/github/last-commit/dominikpantak/pyIsofit) [![codecov](https://codecov.io/gh/dominikpantak/pyIsofit/branch/master/graph/badge.svg?token=BL2CF4HQ06)](https://codecov.io/gh/dominikpantak/

File: LewatitH₂O.csv
Pressure [bar] 25,Relative Pressure 25,Loading [mmol/g] 25,,Pressure [bar] 50,Relative Pressure 50,Loading [mmol/g] 50,,Pressure [bar] 70,Relative Pressure 70,Loading [mmol/g] 70,,sterr,%
0.000793934,2.5021,0.188973,0.0317306,0.003088047,2.50404,0.257737,0.123323,0.007792048,2.50087,0.166893,0.311574,0.0273541,13%
0.001588169,5.00516,0.409786,,0.006169374,5.00262,0.366608,,0.0156703,5.02942,0.354669,,0.016741,4%
0.00238021,7.5013,0.533425,,0.009248509,7.49943,0.481034,,0.0236083,7.57712,0.450425,,0.0242334,5%
0.003174005,10.003,0.655203,,0.012336,10.003,0.594627,,0.03102,9.95592,0.548387,,0.0309273,5%
0.004761156,15.0049,0.897104,,0.0183017,14.8405,1.01206,,0.04680823,15.0232,0.757895,,0.0734824,8%
0.006346553,20.0013,1.15555,,0.0247486,20.0681,1.29229,,0.062114,19.9356,1.00679,,0.0824414,7%
0.007933265,25.0019,1.46051,,0.0308884,25.0468,1.60002,,0.0779461,25.0169,1.27708,,0.0935119,6%
0.00783415,24.6895,1.44872,,0.03071301,24.9046,1.60752,,0.0936028,30.042,1.5691,,0.0478327,3%
0.01110757,35.0058,2.17422,,0.043212,35.0398,2.34824,,0.109084,35.0107,1.87301,,0.138815,7%
0.0126969,40.0147,2.5869,,0.0493957,40.054,2.75623,,0.124784,40.0498,2.20917,,0.161696,6%
0.016065,50.6294,3.69552,,0.0616755,50.0114,3.64719,,0.155571,49.9309,2.99898,,0.224558,7%
0.0189596,59.7516,4.78221,,0.0742622,60.2177,4.72813,,0.186972,60.0091,3.97657,,0.260002,6%
0.0220733,69.5648,6.18173,,0.0865858,70.2107,6.11263,,0.217935,69.9465,5.3073,,0.280669,5%
0.0253626,79.9308,7.99145,,0.09877779,80.0969,8.10981,,0.24938,80.0388,7.31325,,0.248158,3%
0.0286079,90.1587,10.8097,,0.111014,90.0187,12.278,,0.280649,90.0748,12.0212,,0.452753,4%